Folder: IntroRCTM/dados

Note: README.md
<img src="https://raw.githubusercontent.com/Rsimetti/IntroRCTM/master/logoRCTM.png" witdth="150px" height="155" align="right" display="block">

Análise de dados para C&T da madeira com o R
==================

Minicurso oferecido no dia 17 de julho de 2018 na Universidade Federal de Lavras pelo [Núcleo de Estudos em Madeira](http://www.nucleoestudo.ufla.br/nemad/)

Para o desenvolvimento do curso será necessário um computador com:

1. O [programa R](https://cran.r-project.org/) instalado, preferencialmente com versão 3.3.2 ou superior 
2. A inteface [RStudio](https://www.rstudio.com/products/rstudio/download/) instalada, versão 1.1.383 ou superior

Tragam extensões e adaptadores!!!

## Programação
- Introdução ao ambiente do R
- Tipos de variáveis 
- Funções matemáticas básicas
- Operações lógicas
- Leitura e manipulação de dados
- Análise exploratória
- Estatísticas descritivas
- Gráficos básicos
- Aplicações em C&T da madeira

## Dúvidas ou sugestões
Rodrigo Simetti (`rodrigo.simetti@gmail.com`)

File: tga_eucalyptus.txt
File Name:	C:\Rodrigo Simetti\2016 - 06 Termo Tulio\Eucalyptus DTG-60H 2016-05-28 15-50.tad

[File Information]
File Name:	Eucalyptus DTG-60H 2016-05-28 15-50.tad
Sample Name:	Eucalyptus 02
Acquisition Date	16/05/28
Acquisition Time	15:51:28(-0300)
Detector:	DTG-60H
Serial No:	C30574700307
Operator:	Rodrigo Simetti
Atmosphere:	Nitrogen
Flow Rate:	50[ml/min]
Annotation:	Trabalho 2016
	Eucalyptus
Cell:	Alumina
Sample Weight:	4.246[mg]
Molecular Weight:	0.00

[Program]
[Sampling Parameters]
Sampling Time [ sec ]:	1.0
Start Acquisition Setting:	Acquisition measurement simultaneously
Stop Acquisition Setting:	Acquisition measurement simultaneously

[Temp Program]
Temp Rate	Hold Temp	Hold Time	Gas
[C/min ]	[  C   ]	[  min  ]
10.00	600.0	0	1

[Data]
Time	Temp	DTA	TGA
sec	C	uV	mg
0.000	39.879	-6.750	4.246
12.000	40.777	-7.191	4.229
24.000	41.590	-7.499	4.209
36.000	42.291	-7.694	4.190
48.000	42.719	-7.757	4.171
60.000	43.356	-7.715	4.152
72.000	43.631	-7.576	4.135
84.000	44.095	-7.377	4.119
96.000	44.603	-7.148	4.103
108.000	45.205	-6.948	4.089
120.000	46.125	-6.795	4.076
132.000	47.257	-6.735	4.063
144.000	48.935	-6.799	4.050
156.000	50.738	-6.958	4.039
168.000	53.155	-7.193	4.027
180.000	55.558	-7.454	4.014
192.000	58.223	-7.690	4.003
204.000	60.839	-7.847	3.991
216.000	63.436	-7.867	3.981
228.000	65.907	-7.743	3.971
240.000	68.166	-7.500	3.962
252.000	70.464	-7.150	3.955
264.000	72.484	-6.745	3.948
276.000	74.604	-6.312	3.943
288.000	76.504	-5.881	3.939
300.000	78.539	-5.471	3.935
312.000	80.355	-5.117	3.932
324.000	82.492	-4.808	3.930
336.000	84.440	-4.543	3.929
348.000	86.615	-4.323	3.927
360.000	88.653	-4.162	3.926
372.000	90.963	-4.045	3.925
384.000	93.062	-3.955	3.924
396.000	95.346	-3.871	3.924
408.000	97.451	-3.792	3.924
420.000	99.652	-3.721	3.924
432.000	101.709	-3.661	3.923
444.000	103.874	-3.608	3.923
456.000	105.928	-3.558	3.923
468.000	107.985	-3.511	3.923
480.000	110.032	-3.471	3.924
492.000	112.140	-3.455	3.924
504.000	114.265	-3.458	3.924
516.000	116.332	-3.465	3.924
528.000	118.582	-3.480	3.924
540.000	120.662	-3.506	3.924
552.000	122.891	-3.523	3.925
564.000	125.009	-3.541	3.925
576.000	127.228	-3.560	3.926
588.000	129.261	-3.562	3.926
600.000	131.475	-3.562	3.926
612.000	133.531	-3.562	3.927
624.000	135.694	-3.558	3.927
636.000	137.631	-3.560	3.928
648.000	139.816	-3.558	3.927
660.000	141.782	-3.571	3.928
672.000	143.957	-3.583	3.928
684.000	145.924	-3.606	3.928
696.000	148.129	-3.620	3.928
708.000	150.118	-3.638	3.928
720.000	152.292	-3.665	3.929
732.000	154.415	-3.698	3.929
744.000	156.592	-3.724	3.929
756.000	158.656	-3.745	3.929
768.000	160.784	-3.753	3.930
780.000	162.840	-3.763	3.929
792.000	164.928	-3.774	3.929
804.000	166.942	-3.792	3.929
816.000	169.024	-3.802	3.930
828.000	171.067	-3.810	3.930
840.000	173.118	-3.831	3.930
852.000	175.226	-3.859	3.930
864.000	177.284	-3.890	3.930
876.000	179.384	-3.915	3.929
888.000	181.397	-3.933	3.929
900.000	183.551	-3.952	3.929
912.000	185.539	-3.974	3.929
924.000	187.640	-3.995	3.929
936.000	189.656	-4.029	3.929
948.000	191.806	-4.055	3.928
960.000	193.810	-4.078	3.928
972.000	195.946	-4.108	3.928
984.000	197.969	-4.137	3.928
996.000	200.105	-4.164	3.926
1008.000	202.062	-4.196	3.926
1020.000	204.227	-4.220	3.925
1032.000	206.176	-4.254	3.924
1044.000	208.285	-4.295	3.923
1056.000	210.215	-4.340	3.922
1068.000	212.398	-4.374	3.921
1080.000	214.318	-4.414	3.919
1092.000	216.454	-4.445	3.918
1104.000	218.472	-4.494	3.916
1116.000	220.611	-4.544	3.914
1128.000	222.613	-4.581	3.911
1140.000	224.708	-4.611	3.908
1152.000	226.696	-4.641	3.905
1164.000	228.756	-4.675	3.902
1176.000	230.741	-4.721	3.898
1188.000	232.866	-4.774	3.894
1200.000	234.908	-4.844	3.889
1212.000	236.959	-4.907	3.884
1224.000	239.029	-4.966	3.878
1236.000	241.077	-5.022	3.871
1248.000	243.157	-5.075	3.864
1260.000	245.175	-5.127	3.856
1272.000	247.291	-5.181	3.847
1284.000	249.322	-5.240	3.838
1296.000	251.385	-5.298	3.826
1308.000	253.402	-5.352	3.815
1320.000	255.500	-5.407	3.803
1332.000	257.432	-5.466	3.789
1344.000	259.507	-5.536	3.773
1356.000	261.488	-5.606	3.758
1368.000	263.570	-5.685	3.740
1380.000	265.496	-5.758	3.721
1392.000	267.605	-5.838	3.700
1404.000	269.544	-5.922	3.678
1416.000	271.670	-6.016	3.654
1428.000	273.632	-6.114	3.628
1440.000	275.787	-6.215	3.600
1452.000	277.741	-6.314	3.570
1464.000	279.837	-6.410	3.539
1476.000	281.804	-6.516	3.505
1488.000	283.898	-6.617	3.471
1500.000	285.846	-6.695	3.435
1512.000	287.898	-6.763	3.399
1524.000	289.922	-6.821	3.362
1536.000	291.972	-6.864	3.326
1548.000	293.964	-6.896	3.289
1560.000	296.000	-6.911	3.252
1572.000	298.047	-6.919	3.215
1584.000	300.003	-6.928	3.179
1596.000	302.039	-6.938	3.144
1608.000	304.049	-6.954	3.109
1620.000	306.107	-6.980	3.073
1632.000	308.080	-7.009	3.039
1644.000	310.170	-7.046	3.004
1656.000	312.158	-7.096	2.969
1668.000	314.246	-7.142	2.934
1680.000	316.197	-7.198	2.899
1692.000	318.329	-7.262	2.863
1704.000	320.293	-7.333	2.827
1716.000	322.387	-7.418	2.789
1728.000	324.303	-7.514	2.751
1740.000	326.440	-7.622	2.711
1752.000	328.362	-7.732	2.671
1764.000	330.421	-7.857	2.628
1776.000	332.363	-7.991	2.583
1788.000	334.438	-8.138	2.536
1800.000	336.417	-8.325	2.486
1812.000	338.503	-8.517	2.433
1824.000	340.481	-8.727	2.376
1836.000	342.527	-8.931	2.315
1848.000	344.480	-9.150	2.249
1860.000	346.496	-9.378	2.179
1872.000	348.528	-9.610	2.103
1884.000	350.547	-9.837	2.022
1896.000	352.562	-10.031	1.938
1908.000	354.599	-10.190	1.850
1920.000	356.684	-10.284	1.760
1932.000	358.658	-10.300	1.670
1944.000	360.720	-10.211	1.580
1956.000	362.727	-10.009	1.495
1968.000	364.816	-9.685	1.415
1980.000	366.762	-9.248	1.344
1992.000	368.802	-8.714	1.282
2004.000	370.780	-8.124	1.231
2016.000	372.863	-7.507	1.190
2028.000	374.788	-6.944	1.160
2040.000	376.832	-6.469	1.139
2052.000	378.746	-6.067	1.124
2064.000	380.801	-5.745	1.113
2076.000	382.710	-5.516	1.105
2088.000	384.797	-5.369	1.098
2100.000	386.790	-5.284	1.091
2112.000	388.817	-5.220	1.086
2124.000	390.779	-5.177	1.081
2136.000	392.788	-5.149	1.075
2148.000	394.789	-5.133	1.070
2160.000	396.734	-5.124	1.065
2172.000	398.762	-5.129	1.060
2184.000	400.733	-5.150	1.055
2196.000	402.812	-5.186	1.050
2208.000	404.747	-5.220	1.045
2220.000	406.822	-5.271	1.040
2232.000	408.760	-5.329	1.034
2244.000	410.849	-5.382	1.030
2256.000	412.780	-5.453	1.024
2268.000	414.902	-5.525	1.019
2280.000	416.904	-5.587	1.014
2292.000	418.950	-5.638	1.009
2304.000	420.874	-5.691	1.003
2316.000	422.898	-5.745	0.999
2328.000	424.890	-5.814	0.993
2340.000	426.876	-5.888	0.988
2352.000	428.898	-5.974	0.983
2364.000	430.925	-6.062	0.978
2376.000	432.991	-6.149	0.974
2388.000	434.944	-6.234	0.970
2400.000	436.975	-6.333	0.965
2412.000	438.895	-6.443	0.961
2424.000	440.945	-6.594	0.956
2436.000	442.859	-6.748	0.953
2448.000	444.930	-6.912	0.949
2460.000	446.883	-7.075	0.946
2472.000	448.980	-7.231	0.942
2484.000	450.864	-7.420	0.938
2496.000	452.941	-7.601	0.935
2508.000	454.874	-7.790	0.932
2520.000	457.001	-7.926	0.929
2532.000	458.910	-8.067	0.925
2544.000	460.941	-8.206	0.922
2556.000	462.906	-8.328	0.919
2568.000	464.996	-8.415	0.916
2580.000	466.982	-8.508	0.913
2592.000	468.956	-8.639	0.910
2604.000	470.914	-8.787	0.908
2616.000	472.912	-8.899	0.905
2628.000	474.939	-8.974	0.902
2640.000	476.914	-9.040	0.899
2652.000	478.980	-9.111	0.896
2664.000	480.936	-9.195	0.893
2676.000	482.975	-9.327	0.890
2688.000	484.872	-9.455	0.887
2700.000	486.955	-9.604	0.884
2712.000	488.924	-9.764	0.881
2724.000	491.057	-9.886	0.879
2736.000	492.970	-9.982	0.875
2748.000	495.032	-10.125	0.873
2760.000	496.998	-10.272	0.870
2772.000	499.039	-10.424	0.867
2784.000	501.039	-10.585	0.864
2796.000	503.044	-10.745	0.861
2808.000	505.045	-10.909	0.858
2820.000	507.006	-11.052	0.856
2832.000	509.039	-11.202	0.853
2844.000	510.979	-11.350	0.850
2856.000	513.065	-11.490	0.847
2868.000	515.022	-11.587	0.845
2880.000	517.131	-11.695	0.842
2892.000	519.065	-11.805	0.840
2904.000	521.080	-11.927	0.837
2916.000	522.996	-12.010	0.834
2928.000	525.077	-12.085	0.831
2940.000	527.109	-12.154	0.828
2952.000	529.187	-12.209	0.826
2964.000	531.178	-12.273	0.823
2976.000	533.197	-12.324	0.821
2988.000	535.259	-12.365	0.818
3000.000	537.199	-12.420	0.815
3012.000	539.166	-12.490	0.813
3024.000	541.129	-12.552	0.810
3036.000	543.219	-12.619	0.808
3048.000	545.168	-12.673	0.805
3060.000	547.296	-12.732	0.803
3072.000	549.298	-12.789	0.800
3084.000	551.435	-12.863	0.798
3096.000	553.315	-12.937	0.795
3108.000	555.357	-13.013	0.793
3120.000	557.244	-13.096	0.790
3132.000	559.289	-13.176	0.788
3144.000	561.192	-13.255	0.785
3156.000	563.220	-13.337	0.783
3168.000	565.224	-13.409	0.780
3180.000	567.292	-13.492	0.777
3192.000	569.302	-13.578	0.775
3204.000	571.279	-13.660	0.772
3216.000	573.316	-13.730	0.770
3228.000	575.295	-13.831	0.768
3240.000	577.363	-13.914	0.765
3252.000	579.341	-14.011	0.762
3264.000	581.428	-14.094	0.760
3276.000	583.349	-14.177	0.758
3288.000	585.454	-14.240	0.756
3300.000	587.404	-14.340	0.753
3312.000	589.535	-14.446	0.750
3324.000	591.474	-14.546	0.748
3336.000	593.546	-14.623	0.746
3348.000	595.450	-14.694	0.743
3360.000	597.508	-14.761	0.741
3372.000	599.409	-14.844	0.738
3384.000	601.446	-14.904	0.736
3386.000	601.865	-14.911	0.736